File: Analysis_Example/Sample_Data/devices/B4 - cTiO2_spiro[4]/B4 - cTiO2_spiro[4]_0_0.csv
#ID:	1
#type:	Set light intensity
#start_time:	7/18/2020 7:58:09 PM
#
# Parameters
#Sample area:	0.128000 cm²
##Sample IR temperature:	[22.41,22.57
] °C
##Environment temperature:	[22.55,22.54
] °C
##Humidity:	[55.98,55.92
] %
##Light intensity:	[0.000000,100
] %
##Stage temperature:	[NaN,NaN
] °C
#
#wavelength (nm),intensity (1)
330,0.000001
332.969,0.000001
335.938,0.000001
338.906,0.000000
341.875,0.000000
344.844,0.000000
347.812,0.000000
350.781,0.000000
353.75,0.040980
356.719,0.023678
359.688,0.020989
362.656,0.022793
365.625,0.023724
368.594,0.026883
371.562,0.034261
374.531,0.036757
377.5,0.037520
380.469,0.025198
383.438,0.021528
386.406,0.014674
389.375,0.012435
392.344,0.009054
395.312,0.012051
398.281,0.009405
401.25,0.009461
404.219,0.010226
407.188,0.014385
410.156,0.024815
413.125,0.034464
416.094,0.053866
419.062,0.061233
422.031,0.089146
425,0.118213
427.969,0.130073
430.938,0.161006
433.906,0.188162
436.875,0.228871
439.844,0.263503
442.812,0.273553
445.781,0.256189
448.75,0.211164
451.719,0.181123
454.688,0.142659
457.656,0.134898
460.625,0.116540
463.594,0.110402
466.562,0.119686
469.531,0.147938
472.5,0.169777
475.469,0.241668
478.438,0.358590
481.406,0.415376
484.375,0.595565
487.344,0.812727
490.312,0.944963
493.281,1.200022
496.25,1.431523
499.219,1.574699
502.188,1.749368
505.156,1.854961
508.125,1.966694
511.094,2.036470
514.062,2.087942
517.031,2.125865
520,2.145432
522.969,2.168066
525.938,2.178300
528.906,2.189824
531.875,2.197685
534.844,2.198846
537.812,2.195401
540.781,2.188543
543.75,2.177019
546.719,2.146037
549.688,2.132201
552.656,2.090978
555.625,2.056033
558.594,2.021570
561.562,1.975892
564.531,1.939308
567.5,1.902652
570.469,1.875560
573.438,1.839371
576.406,1.815944
579.375,1.799358
582.344,1.774585
585.312,1.767523
588.281,1.760520
591.25,1.760825
594.219,1.767946
597.188,1.772004
600.156,1.782335
603.125,1.805936
606.094,1.812661
609.062,1.827586
612.031,1.836366
615,1.849874
617.969,1.857743
620.938,1.866728
623.906,1.869214
626.875,1.881259
629.844,1.886143
632.812,1.861224
635.781,1.843409
638.75,1.838360
641.719,1.812386
644.688,1.783467
647.656,1.747538
650.625,1.702095
653.594,1.650196
656.562,1.599872
659.531,1.547759
662.5,1.511625
665.469,1.471644
668.438,1.459392
671.406,1.466401
674.375,1.490646
677.344,1.535521
680.312,1.600689
683.281,1.656023
686.25,1.684953
689.219,1.663439
692.188,1.596004
695.156,1.553773
698.125,1.449654
701.094,1.325353
704.062,1.247435
707.031,1.161964
710,0.904432
712.969,0.782280
715.938,0.677585
718.906,0.483467
721.875,0.429119
724.844,0.349183
727.812,0.342737
730.781,0.344224
733.75,0.363542
736.719,0.388166
739.688,0.421609
742.656,0.513367
745.625,0.571963
748.594,0.641782
751.562,0.806734
754.531,0.915545
757.5,1.090180
760.469,1.204579
763.438,1.265385
766.406,1.244287
769.375,1.274305
772.344,1.219944
775.312,1.193461
778.281,1.185377
781.25,1.089741
784.219,1.078025
787.188,0.886770
790.156,0.799935
793.125,0.699387
796.094,0.477382
799.062,0.386532
802.031,0.254252
805,0.212790
807.969,0.148945
810.938,0.125827
813.906,0.106646
816.875,0.094226
819.844,0.089825
822.812,0.093600
825.781,0.099520
828.75,0.111422
831.719,0.123020
834.688,0.141037
837.656,0.158689
840.625,0.181728
843.594,0.210415
846.562,0.241473
849.531,0.288190
852.5,0.333732
855.469,0.401425
858.438,0.450588
861.406,0.532850
864.375,0.572649
867.344,0.659596
870.312,0.704522
873.281,0.801489
876.25,0.870116
879.219,0.975774
882.188,1.038007
885.156,1.122555
888.125,1.149399
891.094,1.185220
894.062,1.207173
897.031,1.169775
900,1.136868
902.969,1.068381
905.938,0.996844
908.906,0.921286
911.875,0.829724
914.844,0.759729
917.812,0.680949
920.781,0.622495
923.75,0.567437
926.719,0.524609
929.688,0.486583
932.656,0.456461
935.625,0.426641
938.594,0.418048
941.562,0.416939
944.531,0.428511
947.5,0.444866
950.469,0.472260
953.438,0.511322
956.406,0.549313
959.375,0.588537
962.344,0.625896
965.312,0.660234
968.281,0.690879
971.25,0.715166
974.219,0.734457
977.188,0.750883
980.156,0.764232
983.125,0.777009
986.094,0.786897
989.062,0.796884
992.031,0.809220
995,0.824317
997.969,0.841934
1000.94,0.867115
1003.91,0.897441
1006.88,0.936465
1009.84,0.978737
1012.81,1.031636
1015.78,1.090500
1018.75,1.150523
1021.72,1.206608
1024.69,1.261850
1027.66,1.299293
1030.62,1.318018
1033.59,1.320273
1036.56,1.305996
1039.53,1.275936
1042.5,1.239760
1045.47,1.207016
1048.44,1.179645
1051.41,1.155085
1054.38,1.137755
1057.34,1.084337
1060.31,1.042286
1063.28,1.000807
1066.25,0.939780
1069.22,0.872021
1072.19,0.827511
1075.16,0.755827
1078.12,0.675558
1081.09,0.598270
1084.06,0.516271
1087.03,0.433688
1090,0.356094
1092.97,0.292546
1095.94,0.240547
1098.91,0.201871
1101.88,0.171115
1104.84,0.145084
1107.81,0.131726
1110.78,0.109557
1113.75,0.088149
1116.72,0.074128
1119.69,0.062532
1122.66,0.035740
1125.62,0.030134
1128.59,0.019667
1131.56,0.004601
1134.53,0.000009
1137.5,0.000010
1140.47,0.000011
1143.44,0.000012
1146.41,0.000016
1149.38,0.000016
1152.34,0.000015
1155.31,0.000016
1158.28,0.000014
1161.25,0.000010
1164.22,0.000008
1167.19,0.000008
1170.16,0.000014
1173.12,0.000011
1176.09,0.000014
1179.06,0.000019
1182.03,0.000022
1185,0.000024
1187.97,0.000026
1190.94,0.000019
1193.91,0.000024
1196.88,0.000028
1199.84,0.000027
1202.81,0.000029
1205.78,0.000039
1208.75,0.000038
1211.72,0.000035
1214.69,0.000030
1217.66,0.000029
1220.62,0.000030
1223.59,0.000027
1226.56,0.000028
1229.53,0.000032
1232.5,0.000028
1235.47,0.000028
1238.44,0.000032
1241.41,0.000031
1244.38,0.000021
1247.34,0.000022
1250.31,0.000011
1253.28,0.000009
1256.25,0.000011
1259.22,0.000010
1262.19,0.000005
1265.16,-0.000002
1268.12,0.000006
1271.09,0.000004
1274.06,0.000003
1277.03,0.000000
1280,-0.000001
1282.97,0.000002
1285.94,0.000003
1288.91,-0.000001
1291.88,-0.000001
1294.84,0.000003
1297.81,0.000001
1300.78,-0.000001
1303.75,0.000002
1306.72,-0.000003
1309.69,-0.000004
1312.66,-0.000000
1315.62,-0.000000